participant,trialnumber,blocknumber,condition,eventtype,eventtype2,RDKnumber,eventcolor,eventfrequency,eventnumber,response,RT
1,2,1,1,distractor,distractor,3,grün,23,1,CR,NaN
1,4,1,1,distractor,distractor,3,grün,23,1,CR,NaN
1,9,1,1,distractor,distractor,3,grün,23,1,FA_proper,763.776016235352
1,10,1,3,target,target_primed,3,grün,23,1,hit,1159.56945419312
1,11,1,3,target,target_primed,3,grün,23,1,miss,NaN
1,12,1,3,distractor,distractor,2,blau,20,1,CR,NaN
1,12,1,3,distractor,distractor,2,blau,20,2,FA_proper,695.227829615275
1,19,1,2,distractor,distractor,1,orange,17,1,FA_proper,793.577591578166
1,19,1,2,distractor,distractor,1,orange,17,2,CR,NaN
1,21,1,2,distractor,distractor,1,orange,17,1,FA_proper,1088.44024340312
1,21,1,2,distractor,distractor,1,orange,17,2,CR,NaN
1,26,1,3,distractor,distractor,2,blau,20,1,CR,NaN
1,29,1,2,target,target_nonprimed,3,grün,23,1,miss,NaN
1,31,1,3,target,target_primed,3,grün,23,1,hit,925.960111618042
1,33,1,1,target,target_nonprimed,2,blau,20,1,miss,NaN
1,33,1,1,distractor,distractor,3,grün,23,2,FA_proper,985.759957631429
1,37,1,2,distractor,distractor,1,orange,17,1,CR,NaN
1,38,1,1,target,target_nonprimed,2,blau,20,1,miss,NaN
1,42,1,3,distractor,distractor,2,blau,20,1,FA_proper,860.622914632161
1,42,1,3,distractor,distractor,2,blau,20,2,CR,NaN
1,43,1,3,distractor,distractor,2,blau,20,1,CR,NaN
1,43,1,3,distractor,distractor,2,blau,20,2,FA_proper,988.068262736003
1,44,1,1,distractor,distractor,3,grün,23,1,FA_proper,760.727024078369
1,45,1,2,distractor,distractor,1,orange,17,1,CR,NaN
1,46,1,3,target,target_primed,3,grün,23,1,hit,1119.04745101929
1,49,1,3,distractor,distractor,2,blau,20,1,FA_proper,877.328968048096
1,49,1,3,distractor,distractor,2,blau,20,2,CR,NaN
1,50,1,2,distractor,distractor,1,orange,17,1,CR,NaN
1,50,1,2,distractor,distractor,1,orange,17,2,CR,NaN
1,55,2,3,distractor,distractor,2,blau,20,1,FA_proper,697.309064865112
1,55,2,3,target,target_nonprimed,1,orange,17,2,miss,NaN
1,57,2,2,target,target_primed,2,blau,20,1,hit,829.545259475708
1,57,2,2,distractor,distractor,1,orange,17,2,CR,NaN
1,58,2,3,target,target_nonprimed,1,orange,17,1,miss,NaN
1,60,2,3,target,target_nonprimed,1,orange,17,1,hit,854.700485865275
1,60,2,3,target,target_primed,3,grün,23,2,miss,NaN
1,61,2,2,target,target_nonprimed,3,grün,23,1,hit,642.138942082723
1,61,2,2,distractor,distractor,1,orange,17,2,CR,NaN
1,65,2,1,target,target_nonprimed,2,blau,20,1,hit,714.704306920369
1,65,2,1,distractor,distractor,3,grün,23,2,CR,NaN
1,69,2,3,target,target_nonprimed,1,orange,17,1,hit,623.346010843913
1,69,2,3,distractor,distractor,2,blau,20,2,CR,NaN
1,74,2,3,target,target_nonprimed,1,orange,17,1,hit,635.451523462932
1,75,2,2,target,target_primed,2,blau,20,1,miss,NaN
1,76,2,3,distractor,distractor,2,blau,20,1,CR,NaN
1,76,2,3,target,target_nonprimed,1,orange,17,2,hit,591.216643651326
1,77,2,1,target,target_nonprimed,2,blau,20,1,miss,NaN
1,77,2,1,target,target_primed,1,orange,17,2,miss,NaN
1,80,2,2,target,target_primed,2,blau,20,1,miss,NaN
1,87,2,3,target,target_nonprimed,1,orange,17,1,hit,610.887543360392
1,87,2,3,distractor,distractor,2,blau,20,2,CR,NaN
1,89,2,2,target,target_primed,2,blau,20,1,hit,1059.1846148173
1,90,2,2,distractor,distractor,1,orange,17,1,FA_proper,531.253512700399
1,94,2,3,distractor,distractor,2,blau,20,1,CR,NaN
1,95,2,2,target,target_primed,2,blau,20,1,hit,782.206519444784
1,95,2,2,target,target_nonprimed,3,grün,23,2,miss,NaN
1,105,3,1,target,target_primed,1,orange,17,1,hit,632.852633794148
1,106,3,2,distractor,distractor,1,orange,17,1,CR,NaN
1,108,3,2,target,target_nonprimed,3,grün,23,1,hit,616.764624913534
1,109,3,2,distractor,distractor,1,orange,17,1,CR,NaN
1,110,3,2,target,target_primed,2,blau,20,1,miss,NaN
1,110,3,2,distractor,distractor,1,orange,17,2,CR,NaN
1,112,3,1,target,target_nonprimed,2,blau,20,1,miss,NaN
1,112,3,1,target,target_primed,1,orange,17,2,hit,645.42981783549
1,113,3,1,distractor,distractor,3,grün,23,1,CR,NaN
1,113,3,1,distractor,distractor,3,grün,23,2,CR,NaN
1,114,3,2,distractor,distractor,1,orange,17,1,CR,NaN
1,118,3,1,target,target_nonprimed,2,blau,20,1,hit,724.021069208781
1,118,3,1,distractor,distractor,3,grün,23,2,CR,NaN
1,120,3,2,distractor,distractor,1,orange,17,1,FA_proper,479.221105575562
1,120,3,2,target,target_nonprimed,3,grün,23,2,miss,NaN
1,122,3,3,distractor,distractor,2,blau,20,1,FA_proper,889.340591430664
1,127,3,3,distractor,distractor,2,blau,20,1,FA_proper,589.976596832275
1,127,3,3,target,target_nonprimed,1,orange,17,2,hit,812.623961766561
1,128,3,2,distractor,distractor,1,orange,17,1,FA_proper,916.608460744222
1,131,3,2,target,target_primed,2,blau,20,1,hit,828.428220748901
1,131,3,2,distractor,distractor,1,orange,17,2,CR,NaN
1,135,3,1,distractor,distractor,3,grün,23,1,CR,NaN
1,135,3,1,distractor,distractor,3,grün,23,2,FA_proper,533.770481745402
1,137,3,1,distractor,distractor,3,grün,23,1,CR,NaN
1,137,3,1,target,target_nonprimed,2,blau,20,2,miss,NaN
1,138,3,2,target,target_primed,2,blau,20,1,hit,612.096214294434
1,138,3,2,target,target_nonprimed,3,grün,23,2,miss,NaN
1,139,3,1,target,target_primed,1,orange,17,1,hit,644.947655995687
1,139,3,1,target,target_nonprimed,2,blau,20,2,miss,NaN
1,142,3,2,distractor,distractor,1,orange,17,1,CR,NaN
1,145,3,1,distractor,distractor,3,grün,23,1,CR,NaN
1,147,3,3,distractor,distractor,2,blau,20,1,FA_proper,818.119128545125
1,147,3,3,target,target_nonprimed,1,orange,17,2,miss,NaN
1,148,3,3,distractor,distractor,2,blau,20,1,CR,NaN
1,148,3,3,target,target_nonprimed,1,orange,17,2,miss,NaN
1,150,3,3,distractor,distractor,2,blau,20,1,CR,NaN
1,150,3,3,target,target_primed,3,grün,23,2,miss,NaN
1,153,4,2,distractor,distractor,1,orange,17,1,CR,NaN
1,153,4,2,target,target_nonprimed,3,grün,23,2,hit,713.4352684021
1,158,4,2,distractor,distractor,1,orange,17,1,CR,NaN
1,160,4,1,target,target_primed,1,orange,17,1,hit,637.974214553833
1,160,4,1,target,target_nonprimed,2,blau,20,2,miss,NaN
1,161,4,3,target,target_nonprimed,1,orange,17,1,hit,588.698641459147
1,162,4,2,target,target_primed,2,blau,20,1,hit,770.100100835165
1,163,4,3,target,target_nonprimed,1,orange,17,1,hit,499.871794382731
1,164,4,3,target,target_primed,3,grün,23,1,hit,723.588339487712
1,164,4,3,distractor,distractor,2,blau,20,2,CR,NaN
1,165,4,1,target,target_nonprimed,2,blau,20,1,hit,796.855274836222
1,167,4,2,target,target_primed,2,blau,20,1,hit,699.561166763306
1,167,4,2,target,target_primed,2,blau,20,2,miss,NaN
1,168,4,3,distractor,distractor,2,blau,20,1,FA_proper,785.245354970296
1,171,4,2,distractor,distractor,1,orange,17,1,FA_proper,559.280872344971
1,171,4,2,target,target_primed,2,blau,20,2,miss,NaN
1,179,4,1,distractor,distractor,3,grün,23,1,CR,NaN
1,179,4,1,target,target_primed,1,orange,17,2,hit,517.095263799032
1,181,4,2,target,target_nonprimed,3,grün,23,1,hit,590.865914026896
1,182,4,2,target,target_primed,2,blau,20,1,hit,601.405334472656
1,182,4,2,distractor,distractor,1,orange,17,2,CR,NaN
1,185,4,1,distractor,distractor,3,grün,23,1,CR,NaN
1,185,4,1,target,target_primed,1,orange,17,2,hit,392.806577682495
1,187,4,2,distractor,distractor,1,orange,17,1,CR,NaN
1,187,4,2,distractor,distractor,1,orange,17,2,CR,NaN
1,188,4,2,distractor,distractor,1,orange,17,1,CR,NaN
1,188,4,2,distractor,distractor,1,orange,17,2,CR,NaN
1,189,4,3,target,target_nonprimed,1,orange,17,1,miss,NaN
1,189,4,3,distractor,distractor,2,blau,20,2,CR,NaN
1,190,4,1,distractor,distractor,3,grün,23,1,CR,NaN
1,192,4,3,distractor,distractor,2,blau,20,1,FA_proper,750.478188196818
1,195,4,1,target,target_primed,1,orange,17,1,hit,626.247533162435
1,196,4,3,target,target_nonprimed,1,orange,17,1,hit,502.596378326416
1,199,4,2,target,target_nonprimed,3,grün,23,1,miss,NaN
1,203,5,3,target,target_primed,3,grün,23,1,hit,828.135347366333
1,204,5,2,distractor,distractor,1,orange,17,1,CR,NaN
1,207,5,2,target,target_nonprimed,3,grün,23,1,miss,NaN
1,207,5,2,target,target_primed,2,blau,20,2,hit,440.618546803792
1,209,5,3,target,target_primed,3,grün,23,1,miss,NaN
1,210,5,2,target,target_nonprimed,3,grün,23,1,miss,NaN
1,210,5,2,distractor,distractor,1,orange,17,2,CR,NaN
1,214,5,1,distractor,distractor,3,grün,23,1,CR,NaN
1,214,5,1,target,target_nonprimed,2,blau,20,2,hit,775.867223739624
1,215,5,2,target,target_primed,2,blau,20,1,hit,789.245732625326
1,222,5,1,target,target_nonprimed,2,blau,20,1,hit,753.551276524861
1,228,5,1,distractor,distractor,3,grün,23,1,CR,NaN
1,232,5,2,target,target_nonprimed,3,grün,23,1,miss,NaN
1,232,5,2,target,target_nonprimed,3,grün,23,2,miss,NaN
1,235,5,3,target,target_nonprimed,1,orange,17,1,hit,598.342450459798
1,236,5,2,target,target_nonprimed,3,grün,23,1,miss,NaN
1,239,5,1,distractor,distractor,3,grün,23,1,CR,NaN
1,240,5,3,target,target_primed,3,grün,23,1,hit,552.243932088216
1,241,5,2,target,target_nonprimed,3,grün,23,1,hit,924.205176035563
1,243,5,2,target,target_primed,2,blau,20,1,miss,NaN
1,248,5,1,distractor,distractor,3,grün,23,1,CR,NaN
1,248,5,1,target,target_primed,1,orange,17,2,hit,441.889603932698
1,250,5,1,distractor,distractor,3,grün,23,1,CR,NaN
1,250,5,1,target,target_nonprimed,2,blau,20,2,hit,612.718470891317
1,252,6,2,target,target_nonprimed,3,grün,23,1,hit,550.755135218302
1,252,6,2,distractor,distractor,1,orange,17,2,CR,NaN
1,254,6,2,target,target_nonprimed,3,grün,23,1,hit,696.587880452474
1,254,6,2,distractor,distractor,1,orange,17,2,CR,NaN
1,257,6,1,target,target_nonprimed,2,blau,20,1,hit,607.591406504313
1,258,6,1,distractor,distractor,3,grün,23,1,CR,NaN
1,258,6,1,distractor,distractor,3,grün,23,2,CR,NaN
1,259,6,1,target,target_primed,1,orange,17,1,hit,611.587476730347
1,260,6,1,target,target_nonprimed,2,blau,20,1,miss,NaN
1,260,6,1,target,target_nonprimed,2,blau,20,2,hit,434.933471679688
1,262,6,3,target,target_nonprimed,1,orange,17,1,hit,636.601956685384
1,262,6,3,target,target_nonprimed,1,orange,17,2,miss,NaN
1,264,6,2,target,target_primed,2,blau,20,1,hit,631.505870819092
1,265,6,1,distractor,distractor,3,grün,23,1,CR,NaN
1,268,6,2,distractor,distractor,1,orange,17,1,FA_proper,586.867030461629
1,268,6,2,distractor,distractor,1,orange,17,2,CR,NaN
1,274,6,1,target,target_primed,1,orange,17,1,hit,588.213141759237
1,275,6,3,target,target_primed,3,grün,23,1,miss,NaN
1,275,6,3,target,target_primed,3,grün,23,2,hit,809.379895528157
1,279,6,1,distractor,distractor,3,grün,23,1,CR,NaN
1,280,6,1,target,target_primed,1,orange,17,1,hit,547.209469477336
1,281,6,3,target,target_nonprimed,1,orange,17,1,hit,905.977980295817
1,281,6,3,distractor,distractor,2,blau,20,2,CR,NaN
1,284,6,1,target,target_nonprimed,2,blau,20,1,hit,735.926421483358
1,287,6,2,target,target_nonprimed,3,grün,23,1,hit,640.439875920614
1,289,6,2,distractor,distractor,1,orange,17,1,FA_proper,866.634718577067
1,289,6,2,distractor,distractor,1,orange,17,2,CR,NaN
1,292,6,3,distractor,distractor,2,blau,20,1,CR,NaN
1,292,6,3,distractor,distractor,2,blau,20,2,FA_proper,474.753427505493
1,293,6,2,distractor,distractor,1,orange,17,1,CR,NaN
1,294,6,1,distractor,distractor,3,grün,23,1,CR,NaN
1,297,6,3,target,target_nonprimed,1,orange,17,1,hit,492.765776316325
1,298,6,1,target,target_primed,1,orange,17,1,hit,636.543114980062
1,304,7,3,distractor,distractor,2,blau,20,1,FA_proper,933.597342173258
1,304,7,3,distractor,distractor,2,blau,20,2,CR,NaN
1,307,7,3,distractor,distractor,2,blau,20,1,CR,NaN
1,308,7,1,distractor,distractor,3,grün,23,1,FA_proper,753.464285532634
1,308,7,1,target,target_primed,1,orange,17,2,miss,NaN
1,310,7,3,distractor,distractor,2,blau,20,1,CR,NaN
1,310,7,3,target,target_primed,3,grün,23,2,miss,NaN
1,311,7,3,target,target_primed,3,grün,23,1,hit,778.054920832316
1,311,7,3,distractor,distractor,2,blau,20,2,CR,NaN
1,312,7,3,target,target_primed,3,grün,23,1,hit,898.749192555746
1,312,7,3,distractor,distractor,2,blau,20,2,CR,NaN
1,315,7,1,target,target_primed,1,orange,17,1,hit,767.662191390991
1,317,7,1,target,target_nonprimed,2,blau,20,1,hit,497.263622283936
1,317,7,1,distractor,distractor,3,grün,23,2,CR,NaN
1,318,7,2,target,target_nonprimed,3,grün,23,1,hit,579.771693547567
1,320,7,1,distractor,distractor,3,grün,23,1,CR,NaN
1,320,7,1,distractor,distractor,3,grün,23,2,CR,NaN
1,321,7,2,target,target_primed,2,blau,20,1,hit,623.634481430054
1,322,7,1,target,target_primed,1,orange,17,1,hit,504.413652420044
1,322,7,1,target,target_nonprimed,2,blau,20,2,miss,NaN
1,323,7,1,target,target_primed,1,orange,17,1,hit,515.211741129558
1,324,7,1,target,target_primed,1,orange,17,1,hit,774.951362609863
1,324,7,1,distractor,distractor,3,grün,23,2,CR,NaN
1,327,7,3,distractor,distractor,2,blau,20,1,CR,NaN
1,328,7,1,distractor,distractor,3,grün,23,1,CR,NaN
1,328,7,1,target,target_primed,1,orange,17,2,hit,561.805391311646
1,331,7,2,distractor,distractor,1,orange,17,1,FA_proper,589.402914047241
1,332,7,3,distractor,distractor,2,blau,20,1,CR,NaN
1,332,7,3,distractor,distractor,2,blau,20,2,CR,NaN
1,336,7,3,target,target_primed,3,grün,23,1,miss,NaN
1,336,7,3,target,target_nonprimed,1,orange,17,2,hit,354.8539797465
1,337,7,2,distractor,distractor,1,orange,17,1,CR,NaN
1,338,7,2,distractor,distractor,1,orange,17,1,CR,NaN
1,338,7,2,distractor,distractor,1,orange,17,2,CR,NaN
1,341,7,3,distractor,distractor,2,blau,20,1,CR,NaN
1,342,7,1,distractor,distractor,3,grün,23,1,CR,NaN
1,350,7,3,target,target_nonprimed,1,orange,17,1,hit,614.273420969645
1,350,7,3,target,target_nonprimed,1,orange,17,2,hit,905.285278956096
1,354,8,3,distractor,distractor,2,blau,20,1,CR,NaN
1,354,8,3,target,target_primed,3,grün,23,2,miss,NaN
1,360,8,1,target,target_primed,1,orange,17,1,hit,698.915036519368
1,360,8,1,target,target_primed,1,orange,17,2,hit,851.957114537557
1,362,8,2,target,target_nonprimed,3,grün,23,1,miss,NaN
1,363,8,3,target,target_nonprimed,1,orange,17,1,hit,952.138837178548
1,367,8,1,target,target_nonprimed,2,blau,20,1,miss,NaN
1,369,8,3,target,target_nonprimed,1,orange,17,1,miss,NaN
1,369,8,3,target,target_primed,3,grün,23,2,hit,214.529291788737
1,370,8,3,distractor,distractor,2,blau,20,1,CR,NaN
1,370,8,3,distractor,distractor,2,blau,20,2,FA_proper,879.467757542928
1,377,8,2,distractor,distractor,1,orange,17,1,CR,NaN
1,377,8,2,target,target_primed,2,blau,20,2,miss,NaN
1,381,8,1,target,target_primed,1,orange,17,1,hit,622.236124674479
1,384,8,3,distractor,distractor,2,blau,20,1,CR,NaN
1,385,8,3,target,target_primed,3,grün,23,1,miss,NaN
1,385,8,3,target,target_primed,3,grün,23,2,miss,NaN
1,387,8,3,distractor,distractor,2,blau,20,1,CR,NaN
1,387,8,3,target,target_primed,3,grün,23,2,hit,758.703327178955
1,388,8,3,distractor,distractor,2,blau,20,1,CR,NaN
1,389,8,2,distractor,distractor,1,orange,17,1,FA_proper,560.996961593628
1,389,8,2,target,target_nonprimed,3,grün,23,2,miss,NaN
1,390,8,3,distractor,distractor,2,blau,20,1,CR,NaN
1,390,8,3,target,target_primed,3,grün,23,2,miss,NaN
1,391,8,3,distractor,distractor,2,blau,20,1,CR,NaN
1,392,8,1,distractor,distractor,3,grün,23,1,CR,NaN
1,392,8,1,distractor,distractor,3,grün,23,2,CR,NaN
1,393,8,1,distractor,distractor,3,grün,23,1,CR,NaN
1,393,8,1,distractor,distractor,3,grün,23,2,CR,NaN
1,394,8,3,target,target_primed,3,grün,23,1,miss,NaN
1,395,8,1,distractor,distractor,3,grün,23,1,CR,NaN
1,395,8,1,distractor,distractor,3,grün,23,2,CR,NaN
1,396,8,1,distractor,distractor,3,grün,23,1,CR,NaN
1,399,8,3,distractor,distractor,2,blau,20,1,CR,NaN
1,403,9,2,target,target_primed,2,blau,20,1,hit,593.012348810832
1,403,9,2,target,target_primed,2,blau,20,2,hit,596.138636271159
1,404,9,1,target,target_primed,1,orange,17,1,hit,634.321387608846
1,404,9,1,distractor,distractor,3,grün,23,2,FA_proper,971.134614944458
1,405,9,2,distractor,distractor,1,orange,17,1,CR,NaN
1,405,9,2,distractor,distractor,1,orange,17,2,CR,NaN
1,412,9,1,target,target_nonprimed,2,blau,20,1,hit,840.890693664551
1,415,9,2,distractor,distractor,1,orange,17,1,CR,NaN
1,417,9,2,target,target_primed,2,blau,20,1,hit,830.470848083496
1,418,9,3,distractor,distractor,2,blau,20,1,CR,NaN
1,419,9,1,target,target_nonprimed,2,blau,20,1,hit,863.860925038656
1,419,9,1,target,target_nonprimed,2,blau,20,2,miss,NaN
1,420,9,1,distractor,distractor,3,grün,23,1,CR,NaN
1,420,9,1,distractor,distractor,3,grün,23,2,FA_proper,954.562520980835
1,421,9,2,target,target_nonprimed,3,grün,23,1,miss,NaN
1,421,9,2,target,target_primed,2,blau,20,2,hit,573.447338740031
1,422,9,3,target,target_primed,3,grün,23,1,miss,NaN
1,422,9,3,distractor,distractor,2,blau,20,2,FA_proper,680.65258661906
1,423,9,1,target,target_primed,1,orange,17,1,hit,492.521667480469
1,423,9,1,distractor,distractor,3,grün,23,2,FA_proper,551.901658376058
1,426,9,1,target,target_primed,1,orange,17,1,hit,551.30565961202
1,428,9,1,distractor,distractor,3,grün,23,1,CR,NaN
1,432,9,1,distractor,distractor,3,grün,23,1,FA_proper,665.248775482178
1,432,9,1,target,target_nonprimed,2,blau,20,2,hit,752.051703135172
1,437,9,3,distractor,distractor,2,blau,20,1,FA_proper,488.355414072672
1,440,9,3,target,target_primed,3,grün,23,1,hit,953.40747833252
1,441,9,3,distractor,distractor,2,blau,20,1,CR,NaN
1,451,10,3,distractor,distractor,2,blau,20,1,CR,NaN
1,454,10,1,distractor,distractor,3,grün,23,1,CR,NaN
1,454,10,1,target,target_nonprimed,2,blau,20,2,hit,775.905783971151
1,456,10,3,distractor,distractor,2,blau,20,1,FA_proper,602.057218551636
1,461,10,2,target,target_primed,2,blau,20,1,hit,632.653411229451
1,466,10,2,target,target_primed,2,blau,20,1,hit,707.13988939921
1,466,10,2,target,target_nonprimed,3,grün,23,2,miss,NaN
1,467,10,2,distractor,distractor,1,orange,17,1,CR,NaN
1,467,10,2,target,target_primed,2,blau,20,2,miss,NaN
1,471,10,3,distractor,distractor,2,blau,20,1,FA_proper,641.600275039673
1,473,10,2,target,target_primed,2,blau,20,1,hit,690.442752838135
1,473,10,2,distractor,distractor,1,orange,17,2,CR,NaN
1,474,10,1,target,target_primed,1,orange,17,1,hit,692.86626180013
1,474,10,1,target,target_primed,1,orange,17,2,hit,511.568069458008
1,475,10,1,distractor,distractor,3,grün,23,1,CR,NaN
1,476,10,1,target,target_nonprimed,2,blau,20,1,hit,607.172393798828
1,476,10,1,target,target_nonprimed,2,blau,20,2,hit,574.249601364135
1,487,10,2,distractor,distractor,1,orange,17,1,FA_proper,574.704996744792
1,492,10,1,target,target_primed,1,orange,17,1,hit,559.846687316895
1,492,10,1,distractor,distractor,3,grün,23,2,CR,NaN
1,495,10,2,distractor,distractor,1,orange,17,1,FA_proper,587.666177749634
1,495,10,2,target,target_primed,2,blau,20,2,hit,710.906060536702
1,496,10,1,distractor,distractor,3,grün,23,1,CR,NaN
1,498,10,3,target,target_nonprimed,1,orange,17,1,miss,NaN
1,499,10,1,distractor,distractor,3,grün,23,1,CR,NaN
1,499,10,1,distractor,distractor,3,grün,23,2,CR,NaN
1,501,11,3,target,target_nonprimed,1,orange,17,1,miss,NaN
1,501,11,3,distractor,distractor,2,blau,20,2,CR,NaN
1,507,11,3,distractor,distractor,2,blau,20,1,CR,NaN
1,510,11,1,target,target_nonprimed,2,blau,20,1,hit,636.091375350952
1,510,11,1,distractor,distractor,3,grün,23,2,CR,NaN
1,511,11,3,target,target_primed,3,grün,23,1,hit,951.300064722697
1,514,11,3,distractor,distractor,2,blau,20,1,CR,NaN
1,514,11,3,distractor,distractor,2,blau,20,2,FA_proper,762.646373112997
1,519,11,1,target,target_nonprimed,2,blau,20,1,hit,685.96707979838
1,526,11,1,distractor,distractor,3,grün,23,1,CR,NaN
1,528,11,1,target,target_primed,1,orange,17,1,hit,720.601511001587
1,528,11,1,distractor,distractor,3,grün,23,2,FA_proper,566.953023274739
1,529,11,2,distractor,distractor,1,orange,17,1,CR,NaN
1,531,11,3,target,target_primed,3,grün,23,1,hit,822.477801640828
1,531,11,3,target,target_nonprimed,1,orange,17,2,hit,604.306840896606
1,534,11,1,target,target_nonprimed,2,blau,20,1,miss,NaN
1,537,11,1,distractor,distractor,3,grün,23,1,CR,NaN
1,537,11,1,distractor,distractor,3,grün,23,2,CR,NaN
1,538,11,2,distractor,distractor,1,orange,17,1,CR,NaN
1,538,11,2,distractor,distractor,1,orange,17,2,CR,NaN
1,543,11,2,distractor,distractor,1,orange,17,1,CR,NaN
1,543,11,2,target,target_nonprimed,3,grün,23,2,miss,NaN
1,544,11,1,distractor,distractor,3,grün,23,1,CR,NaN
1,546,11,1,target,target_nonprimed,2,blau,20,1,miss,NaN
1,547,11,3,target,target_primed,3,grün,23,1,hit,674.072821935018
1,547,11,3,target,target_nonprimed,1,orange,17,2,hit,655.280860265096
1,549,11,3,distractor,distractor,2,blau,20,1,CR,NaN
1,549,11,3,distractor,distractor,2,blau,20,2,CR,NaN
1,552,12,2,distractor,distractor,1,orange,17,1,CR,NaN
1,552,12,2,target,target_primed,2,blau,20,2,miss,NaN
1,558,12,3,target,target_primed,3,grün,23,1,hit,759.827963511149
1,558,12,3,distractor,distractor,2,blau,20,2,FA_proper,687.900082270304
1,563,12,3,distractor,distractor,2,blau,20,1,CR,NaN
1,566,12,2,target,target_nonprimed,3,grün,23,1,miss,NaN
1,566,12,2,target,target_nonprimed,3,grün,23,2,hit,915.546751022339
1,571,12,2,distractor,distractor,1,orange,17,1,CR,NaN
1,574,12,3,target,target_nonprimed,1,orange,17,1,hit,812.661647796631
1,579,12,2,distractor,distractor,1,orange,17,1,CR,NaN
1,579,12,2,target,target_nonprimed,3,grün,23,2,hit,634.436225891113
1,587,12,2,target,target_nonprimed,3,grün,23,1,miss,NaN
1,587,12,2,distractor,distractor,1,orange,17,2,CR,NaN
1,588,12,2,distractor,distractor,1,orange,17,1,FA_proper,999.935865402222
1,590,12,1,distractor,distractor,3,grün,23,1,CR,NaN
1,591,12,1,distractor,distractor,3,grün,23,1,CR,NaN
1,592,12,2,distractor,distractor,1,orange,17,1,CR,NaN
1,596,12,2,target,target_nonprimed,3,grün,23,1,hit,820.590321222941
1,597,12,2,target,target_nonprimed,3,grün,23,1,hit,889.400704701742
1,597,12,2,target,target_nonprimed,3,grün,23,2,hit,887.276124954224
1,599,12,2,distractor,distractor,1,orange,17,1,CR,NaN
1,600,12,3,target,target_nonprimed,1,orange,17,1,hit,776.782449086507
1,600,12,3,target,target_primed,3,grün,23,2,hit,616.706450780232
2,1,1,1,distractor,distractor,3,blau,20,1,CR,NaN
2,1,1,1,target,target_nonprimed,2,orange,23,2,miss,NaN
2,2,1,1,target,target_nonprimed,2,orange,23,1,hit,778.531773885091
2,2,1,1,target,target_nonprimed,2,orange,23,2,hit,416.24231338501
2,6,1,1,distractor,distractor,3,blau,20,1,CR,NaN
2,6,1,1,target,target_nonprimed,2,orange,23,2,miss,NaN
2,8,1,1,distractor,distractor,3,blau,20,1,CR,NaN
2,8,1,1,target,target_primed,1,grün,17,2,miss,NaN
2,9,1,1,distractor,distractor,3,blau,20,1,FA_proper,856.848494211833
2,13,1,1,target,target_nonprimed,2,orange,23,1,hit,839.832576115926
2,13,1,1,distractor,distractor,3,blau,20,2,FA_proper,805.986913045247
2,15,1,2,distractor,distractor,1,grün,17,1,CR,NaN
2,16,1,3,distractor,distractor,2,orange,23,1,FA_proper,637.463140487671
2,17,1,2,target,target_nonprimed,3,blau,20,1,miss,NaN
2,17,1,2,distractor,distractor,1,grün,17,2,CR,NaN
2,21,1,3,distractor,distractor,2,orange,23,1,CR,NaN
2,23,1,1,distractor,distractor,3,blau,20,1,CR,NaN
2,23,1,1,target,target_nonprimed,2,orange,23,2,hit,760.478146870931
2,24,1,3,target,target_nonprimed,1,grün,17,1,miss,NaN
2,24,1,3,target,target_primed,3,blau,20,2,hit,559.447638193766
2,25,1,2,distractor,distractor,1,grün,17,1,FA_proper,742.482074101766
2,25,1,2,distractor,distractor,1,grün,17,2,CR,NaN
2,26,1,1,distractor,distractor,3,blau,20,1,CR,NaN
2,26,1,1,target,target_primed,1,grün,17,2,hit,337.404521306355
2,27,1,3,target,target_primed,3,blau,20,1,hit,654.438018798828
2,29,1,3,target,target_nonprimed,1,grün,17,1,miss,NaN
2,29,1,3,distractor,distractor,2,orange,23,2,CR,NaN
2,30,1,3,target,target_nonprimed,1,grün,17,1,miss,NaN
2,30,1,3,target,target_nonprimed,1,grün,17,2,miss,NaN
2,33,1,3,distractor,distractor,2,orange,23,1,CR,NaN
2,34,1,1,target,target_primed,1,grün,17,1,hit,665.757608413696
2,34,1,1,target,target_primed,1,grün,17,2,miss,NaN
2,37,1,1,target,target_primed,1,grün,17,1,hit,710.333220163981
2,41,1,3,target,target_nonprimed,1,grün,17,1,miss,NaN
2,48,1,3,distractor,distractor,2,orange,23,1,CR,NaN
2,48,1,3,distractor,distractor,2,orange,23,2,CR,NaN
2,50,1,2,distractor,distractor,1,grün,17,1,CR,NaN
2,54,2,3,distractor,distractor,2,orange,23,1,FA_proper,832.059399286906
2,57,2,2,target,target_primed,2,orange,23,1,hit,618.920230865479
2,61,2,3,distractor,distractor,2,orange,23,1,CR,NaN
2,61,2,3,target,target_primed,3,blau,20,2,miss,NaN
2,63,2,1,target,target_primed,1,grün,17,1,miss,NaN
2,63,2,1,target,target_primed,1,grün,17,2,miss,NaN
2,65,2,3,distractor,distractor,2,orange,23,1,CR,NaN
2,66,2,1,distractor,distractor,3,blau,20,1,FA_proper,951.385037104289
2,67,2,2,target,target_primed,2,orange,23,1,hit,751.612806320191
2,67,2,2,distractor,distractor,1,grün,17,2,CR,NaN
2,69,2,2,target,target_nonprimed,3,blau,20,1,miss,NaN
2,69,2,2,distractor,distractor,1,grün,17,2,CR,NaN
2,73,2,2,target,target_primed,2,orange,23,1,hit,833.100239435832
2,73,2,2,target,target_nonprimed,3,blau,20,2,hit,653.392934799194
2,75,2,3,target,target_primed,3,blau,20,1,hit,501.400184631348
2,75,2,3,target,target_primed,3,blau,20,2,hit,496.311092376709
2,76,2,1,target,target_nonprimed,2,orange,23,1,miss,NaN
2,76,2,1,target,target_primed,1,grün,17,2,hit,723.651202519734
2,79,2,2,target,target_nonprimed,3,blau,20,1,miss,NaN
2,83,2,2,distractor,distractor,1,grün,17,1,CR,NaN
2,83,2,2,distractor,distractor,1,grün,17,2,CR,NaN
2,84,2,1,target,target_primed,1,grün,17,1,miss,NaN
2,84,2,1,distractor,distractor,3,blau,20,2,FA_proper,843.884388605754
2,86,2,1,target,target_nonprimed,2,orange,23,1,miss,NaN
2,89,2,3,distractor,distractor,2,orange,23,1,FA_proper,975.57544708252
2,89,2,3,target,target_primed,3,blau,20,2,miss,NaN
2,90,2,2,distractor,distractor,1,grün,17,1,CR,NaN
2,94,2,1,distractor,distractor,3,blau,20,1,CR,NaN
2,94,2,1,target,target_primed,1,grün,17,2,hit,304.172007242839
2,95,2,2,target,target_nonprimed,3,blau,20,1,miss,NaN
2,97,2,2,distractor,distractor,1,grün,17,1,CR,NaN
2,97,2,2,distractor,distractor,1,grün,17,2,CR,NaN
2,98,2,3,target,target_nonprimed,1,grün,17,1,miss,NaN
2,98,2,3,target,target_primed,3,blau,20,2,hit,824.924039840698
2,99,2,2,distractor,distractor,1,grün,17,1,CR,NaN
2,99,2,2,target,target_nonprimed,3,blau,20,2,miss,NaN
2,101,3,2,target,target_nonprimed,3,blau,20,1,hit,834.17755762736
2,108,3,2,distractor,distractor,1,grün,17,1,CR,NaN
2,108,3,2,target,target_nonprimed,3,blau,20,2,hit,783.629369735718
2,110,3,3,target,target_primed,3,blau,20,1,hit,738.316027323405
2,116,3,3,distractor,distractor,2,orange,23,1,CR,NaN
2,116,3,3,target,target_nonprimed,1,grün,17,2,miss,NaN
2,117,3,1,distractor,distractor,3,blau,20,1,CR,NaN
2,117,3,1,distractor,distractor,3,blau,20,2,FA_proper,863.068866729736
2,122,3,3,target,target_primed,3,blau,20,1,hit,553.493420283
2,122,3,3,distractor,distractor,2,orange,23,2,CR,NaN
2,123,3,1,target,target_primed,1,grün,17,1,miss,NaN
2,124,3,1,distractor,distractor,3,blau,20,1,CR,NaN
2,125,3,1,distractor,distractor,3,blau,20,1,CR,NaN
2,126,3,3,target,target_nonprimed,1,grün,17,1,miss,NaN
2,129,3,3,distractor,distractor,2,orange,23,1,CR,NaN
2,133,3,1,target,target_nonprimed,2,orange,23,1,miss,NaN
2,134,3,3,distractor,distractor,2,orange,23,1,CR,NaN
2,136,3,2,target,target_primed,2,orange,23,1,hit,928.177277247111
2,138,3,1,distractor,distractor,3,blau,20,1,FA_proper,591.798766454061
2,153,4,2,target,target_primed,2,orange,23,1,hit,732.263962427775
2,153,4,2,distractor,distractor,1,grün,17,2,CR,NaN
2,155,4,3,target,target_nonprimed,1,grün,17,1,miss,NaN
2,155,4,3,distractor,distractor,2,orange,23,2,CR,NaN
2,157,4,1,target,target_primed,1,grün,17,1,miss,NaN
2,160,4,3,target,target_primed,3,blau,20,1,hit,615.752363204957
2,160,4,3,distractor,distractor,2,orange,23,2,FA_proper,506.181653340658
2,161,4,2,target,target_primed,2,orange,23,1,hit,819.439140955607
2,162,4,2,target,target_nonprimed,3,blau,20,1,miss,NaN
2,162,4,2,target,target_nonprimed,3,blau,20,2,miss,NaN
2,165,4,1,target,target_nonprimed,2,orange,23,1,miss,NaN
2,165,4,1,distractor,distractor,3,blau,20,2,FA_proper,307.698535919189
2,171,4,2,target,target_primed,2,orange,23,1,hit,701.24839146932
2,172,4,2,target,target_primed,2,orange,23,1,hit,439.150794347127
2,172,4,2,target,target_nonprimed,3,blau,20,2,miss,NaN
2,175,4,1,target,target_nonprimed,2,orange,23,1,hit,919.49249903361
2,183,4,2,distractor,distractor,1,grün,17,1,CR,NaN
2,184,4,3,target,target_nonprimed,1,grün,17,1,miss,NaN
2,185,4,3,distractor,distractor,2,orange,23,1,CR,NaN
2,186,4,1,target,target_primed,1,grün,17,1,hit,853.790442148845
2,186,4,1,target,target_primed,1,grün,17,2,miss,NaN
2,189,4,1,target,target_primed,1,grün,17,1,miss,NaN
2,193,4,3,distractor,distractor,2,orange,23,1,FA_proper,642.353391647339
2,193,4,3,distractor,distractor,2,orange,23,2,FA_proper,633.435106277465
2,195,4,1,distractor,distractor,3,blau,20,1,FA_proper,929.053417841593
2,197,4,3,distractor,distractor,2,orange,23,1,CR,NaN
2,197,4,3,target,target_primed,3,blau,20,2,hit,660.564724604289
2,198,4,2,distractor,distractor,1,grün,17,1,CR,NaN
2,200,4,2,target,target_primed,2,orange,23,1,hit,696.385685602824
2,200,4,2,target,target_nonprimed,3,blau,20,2,hit,815.016349156697
2,201,5,2,distractor,distractor,1,grün,17,1,CR,NaN
2,201,5,2,distractor,distractor,1,grün,17,2,CR,NaN
2,205,5,3,distractor,distractor,2,orange,23,1,CR,NaN
2,205,5,3,target,target_nonprimed,1,grün,17,2,miss,NaN
2,207,5,3,distractor,distractor,2,orange,23,1,FA_proper,892.699654897054
2,207,5,3,distractor,distractor,2,orange,23,2,CR,NaN
2,211,5,1,distractor,distractor,3,blau,20,1,FA_proper,616.203546524048
2,213,5,3,target,target_primed,3,blau,20,1,hit,646.859804789225
2,213,5,3,target,target_nonprimed,1,grün,17,2,miss,NaN
2,214,5,2,distractor,distractor,1,grün,17,1,CR,NaN
2,216,5,3,target,target_nonprimed,1,grün,17,1,miss,NaN
2,217,5,1,distractor,distractor,3,blau,20,1,FA_proper,840.29115041097
2,217,5,1,target,target_primed,1,grün,17,2,miss,NaN
2,220,5,1,target,target_nonprimed,2,orange,23,1,miss,NaN
2,221,5,3,distractor,distractor,2,orange,23,1,CR,NaN
2,221,5,3,distractor,distractor,2,orange,23,2,FA_proper,259.994475046794
2,223,5,1,distractor,distractor,3,blau,20,1,FA_proper,993.500105539958
2,225,5,2,target,target_nonprimed,3,blau,20,1,miss,NaN
2,228,5,2,distractor,distractor,1,grün,17,1,CR,NaN
2,231,5,1,target,target_primed,1,grün,17,1,miss,NaN
2,231,5,1,target,target_nonprimed,2,orange,23,2,hit,602.349217732748
2,234,5,2,distractor,distractor,1,grün,17,1,CR,NaN
2,234,5,2,target,target_primed,2,orange,23,2,miss,NaN
2,236,5,3,distractor,distractor,2,orange,23,1,CR,NaN
2,239,5,2,target,target_nonprimed,3,blau,20,1,hit,661.677964528402
2,239,5,2,distractor,distractor,1,grün,17,2,CR,NaN
2,240,5,1,target,target_nonprimed,2,orange,23,1,miss,NaN
2,241,5,2,distractor,distractor,1,grün,17,1,CR,NaN
2,241,5,2,distractor,distractor,1,grün,17,2,CR,NaN
2,247,5,1,target,target_nonprimed,2,orange,23,1,hit,910.603857040405
2,247,5,1,distractor,distractor,3,blau,20,2,CR,NaN
2,248,5,1,distractor,distractor,3,blau,20,1,FA_proper,831.08426729838
2,250,5,2,distractor,distractor,1,grün,17,1,CR,NaN
2,250,5,2,distractor,distractor,1,grün,17,2,CR,NaN
2,251,6,2,distractor,distractor,1,grün,17,1,CR,NaN
2,251,6,2,distractor,distractor,1,grün,17,2,CR,NaN
2,253,6,1,distractor,distractor,3,blau,20,1,FA_proper,856.436745325724
2,256,6,2,target,target_nonprimed,3,blau,20,1,hit,700.970443089803
2,256,6,2,target,target_nonprimed,3,blau,20,2,hit,563.066514333089
2,257,6,3,distractor,distractor,2,orange,23,1,FA_proper,803.798977533976
2,257,6,3,distractor,distractor,2,orange,23,2,CR,NaN
2,267,6,3,distractor,distractor,2,orange,23,1,FA_proper,675.9130636851
2,267,6,3,target,target_nonprimed,1,grün,17,2,miss,NaN
2,268,6,3,target,target_nonprimed,1,grün,17,1,miss,NaN
2,272,6,1,target,target_primed,1,grün,17,1,miss,NaN
2,275,6,1,target,target_nonprimed,2,orange,23,1,hit,466.282796859741
2,275,6,1,target,target_nonprimed,2,orange,23,2,hit,491.094652811686
2,276,6,2,distractor,distractor,1,grün,17,1,CR,NaN
2,276,6,2,target,target_primed,2,orange,23,2,hit,438.069534301758
2,277,6,1,distractor,distractor,3,blau,20,1,CR,NaN
2,279,6,1,distractor,distractor,3,blau,20,1,CR,NaN
2,279,6,1,distractor,distractor,3,blau,20,2,FA_proper,266.843382517497
2,282,6,2,target,target_primed,2,orange,23,1,hit,877.561680475871
2,285,6,2,target,target_primed,2,orange,23,1,miss,NaN
2,287,6,2,distractor,distractor,1,grün,17,1,CR,NaN
2,295,6,3,distractor,distractor,2,orange,23,1,CR,NaN
2,295,6,3,target,target_nonprimed,1,grün,17,2,miss,NaN
2,300,6,3,target,target_primed,3,blau,20,1,hit,696.049276987712
2,300,6,3,target,target_nonprimed,1,grün,17,2,miss,NaN
2,302,7,3,distractor,distractor,2,orange,23,1,CR,NaN
2,304,7,3,distractor,distractor,2,orange,23,1,FA_proper,784.682448705038
2,304,7,3,target,target_nonprimed,1,grün,17,2,miss,NaN
2,305,7,2,distractor,distractor,1,grün,17,1,FA_proper,942.987108230591
2,305,7,2,distractor,distractor,1,grün,17,2,CR,NaN
2,309,7,2,target,target_nonprimed,3,blau,20,1,hit,990.167045593262
2,310,7,1,distractor,distractor,3,blau,20,1,FA_proper,795.136785507202
2,310,7,1,distractor,distractor,3,blau,20,2,FA_proper,656.157207489014
2,314,7,1,distractor,distractor,3,blau,20,1,CR,NaN
2,321,7,3,distractor,distractor,2,orange,23,1,FA_proper,885.930983225505
2,321,7,3,target,target_primed,3,blau,20,2,hit,540.387773513794
2,325,7,1,distractor,distractor,3,blau,20,1,CR,NaN
2,327,7,2,target,target_primed,2,orange,23,1,hit,740.380334854126
2,328,7,2,target,target_nonprimed,3,blau,20,1,miss,NaN
2,330,7,3,distractor,distractor,2,orange,23,1,CR,NaN
2,330,7,3,distractor,distractor,2,orange,23,2,CR,NaN
2,336,7,2,target,target_primed,2,orange,23,1,hit,528.022543589274
2,336,7,2,target,target_primed,2,orange,23,2,hit,585.683997472127
2,337,7,2,target,target_nonprimed,3,blau,20,1,hit,538.36506207784
2,338,7,1,distractor,distractor,3,blau,20,1,FA_proper,600.228055318197
2,347,7,2,distractor,distractor,1,grün,17,1,CR,NaN
2,347,7,2,target,target_primed,2,orange,23,2,hit,873.380025227864
2,348,7,2,distractor,distractor,1,grün,17,1,CR,NaN
2,351,8,3,target,target_nonprimed,1,grün,17,1,miss,NaN
2,351,8,3,distractor,distractor,2,orange,23,2,CR,NaN
2,352,8,3,distractor,distractor,2,orange,23,1,FA_proper,838.964335123698
2,355,8,3,distractor,distractor,2,orange,23,1,FA_proper,748.965120315552
2,355,8,3,distractor,distractor,2,orange,23,2,CR,NaN
2,356,8,3,distractor,distractor,2,orange,23,1,CR,NaN
2,358,8,2,target,target_primed,2,orange,23,1,hit,635.342359542847
2,358,8,2,target,target_primed,2,orange,23,2,hit,484.359073638916
2,360,8,1,distractor,distractor,3,blau,20,1,FA_proper,678.21798324585
2,360,8,1,distractor,distractor,3,blau,20,2,CR,NaN
2,363,8,3,target,target_primed,3,blau,20,1,hit,519.855260848999
2,363,8,3,distractor,distractor,2,orange,23,2,FA_proper,729.637877146403
2,364,8,1,distractor,distractor,3,blau,20,1,CR,NaN
2,365,8,2,distractor,distractor,1,grün,17,1,CR,NaN
2,368,8,1,target,target_nonprimed,2,orange,23,1,hit,740.509255727132
2,368,8,1,distractor,distractor,3,blau,20,2,FA_proper,476.483424504598
2,372,8,3,distractor,distractor,2,orange,23,1,CR,NaN
2,374,8,3,target,target_primed,3,blau,20,1,hit,581.23722076416
2,376,8,1,distractor,distractor,3,blau,20,1,CR,NaN
2,377,8,2,distractor,distractor,1,grün,17,1,CR,NaN
2,377,8,2,distractor,distractor,1,grün,17,2,CR,NaN
2,378,8,3,distractor,distractor,2,orange,23,1,CR,NaN
2,379,8,3,distractor,distractor,2,orange,23,1,CR,NaN
2,379,8,3,distractor,distractor,2,orange,23,2,CR,NaN
2,381,8,1,target,target_primed,1,grün,17,1,miss,NaN
2,388,8,1,target,target_primed,1,grün,17,1,miss,NaN
2,390,8,1,target,target_primed,1,grün,17,1,hit,786.297941207886
2,392,8,3,distractor,distractor,2,orange,23,1,CR,NaN
2,395,8,2,target,target_primed,2,orange,23,1,hit,558.964172999064
2,397,8,1,distractor,distractor,3,blau,20,1,CR,NaN
2,397,8,1,distractor,distractor,3,blau,20,2,FA_proper,780.964771906535
2,399,8,3,target,target_nonprimed,1,grün,17,1,miss,NaN
2,399,8,3,distractor,distractor,2,orange,23,2,CR,NaN
2,402,9,3,target,target_primed,3,blau,20,1,hit,707.409063975016
2,404,9,2,target,target_nonprimed,3,blau,20,1,hit,602.28796005249
2,404,9,2,distractor,distractor,1,grün,17,2,CR,NaN
2,407,9,2,distractor,distractor,1,grün,17,1,CR,NaN
2,409,9,1,target,target_nonprimed,2,orange,23,1,hit,517.519315083822
2,412,9,3,distractor,distractor,2,orange,23,1,CR,NaN
2,412,9,3,distractor,distractor,2,orange,23,2,CR,NaN
2,417,9,2,distractor,distractor,1,grün,17,1,CR,NaN
2,421,9,3,target,target_primed,3,blau,20,1,hit,471.37196858724
2,421,9,3,target,target_nonprimed,1,grün,17,2,miss,NaN
2,424,9,1,distractor,distractor,3,blau,20,1,CR,NaN
2,424,9,1,distractor,distractor,3,blau,20,2,CR,NaN
2,426,9,3,distractor,distractor,2,orange,23,1,FA_proper,858.107614517212
2,426,9,3,distractor,distractor,2,orange,23,2,CR,NaN
2,427,9,3,distractor,distractor,2,orange,23,1,FA_proper,918.606503804525
2,431,9,2,target,target_nonprimed,3,blau,20,1,hit,564.885632197062
2,433,9,1,target,target_nonprimed,2,orange,23,1,miss,NaN
2,433,9,1,target,target_nonprimed,2,orange,23,2,hit,413.875436782837
2,434,9,3,target,target_nonprimed,1,grün,17,1,miss,NaN
2,434,9,3,distractor,distractor,2,orange,23,2,CR,NaN
2,438,9,1,target,target_nonprimed,2,orange,23,1,miss,NaN
2,440,9,1,target,target_nonprimed,2,orange,23,1,miss,NaN
2,440,9,1,distractor,distractor,3,blau,20,2,FA_proper,750.002384185791
2,441,9,2,target,target_primed,2,orange,23,1,hit,736.951224009196
2,441,9,2,distractor,distractor,1,grün,17,2,CR,NaN
2,442,9,3,target,target_primed,3,blau,20,1,hit,473.810466130575
2,443,9,2,distractor,distractor,1,grün,17,1,CR,NaN
2,450,9,3,target,target_nonprimed,1,grün,17,1,miss,NaN
2,450,9,3,target,target_nonprimed,1,grün,17,2,miss,NaN
2,452,10,2,distractor,distractor,1,grün,17,1,CR,NaN
2,452,10,2,target,target_nonprimed,3,blau,20,2,hit,677.067232131958
2,454,10,1,distractor,distractor,3,blau,20,1,CR,NaN
2,454,10,1,distractor,distractor,3,blau,20,2,CR,NaN
2,459,10,2,distractor,distractor,1,grün,17,1,FA_proper,930.765708287557
2,459,10,2,target,target_nonprimed,3,blau,20,2,miss,NaN
2,464,10,3,target,target_primed,3,blau,20,1,hit,531.060218811035
2,464,10,3,target,target_primed,3,blau,20,2,hit,448.073673248291
2,468,10,1,target,target_primed,1,grün,17,1,miss,NaN
2,468,10,1,distractor,distractor,3,blau,20,2,CR,NaN
2,470,10,3,target,target_nonprimed,1,grün,17,1,hit,904.557275772095
2,471,10,2,distractor,distractor,1,grün,17,1,CR,NaN
2,474,10,2,target,target_primed,2,orange,23,1,miss,NaN
2,477,10,3,target,target_primed,3,blau,20,1,hit,656.071345011393
2,481,10,2,target,target_nonprimed,3,blau,20,1,hit,625.690412521362
2,481,10,2,target,target_nonprimed,3,blau,20,2,hit,561.735153198242
2,482,10,1,distractor,distractor,3,blau,20,1,CR,NaN
2,482,10,1,target,target_nonprimed,2,orange,23,2,hit,579.383993148804
2,485,10,1,target,target_primed,1,grün,17,1,miss,NaN
2,485,10,1,distractor,distractor,3,blau,20,2,CR,NaN
2,489,10,3,target,target_nonprimed,1,grün,17,1,miss,NaN
2,491,10,1,target,target_nonprimed,2,orange,23,1,miss,NaN
2,492,10,1,distractor,distractor,3,blau,20,1,CR,NaN
2,493,10,1,target,target_primed,1,grün,17,1,miss,NaN
2,493,10,1,distractor,distractor,3,blau,20,2,CR,NaN
2,494,10,3,target,target_primed,3,blau,20,1,hit,890.225712458292
2,495,10,1,target,target_primed,1,grün,17,1,miss,NaN
2,496,10,3,distractor,distractor,2,orange,23,1,CR,NaN
2,501,11,3,target,target_primed,3,blau,20,1,hit,472.587108612061
2,505,11,1,distractor,distractor,3,blau,20,1,FA_proper,844.1725730896
2,505,11,1,target,target_primed,1,grün,17,2,miss,NaN
2,513,11,2,target,target_nonprimed,3,blau,20,1,hit,702.435890833537
2,514,11,3,distractor,distractor,2,orange,23,1,CR,NaN
2,517,11,3,target,target_primed,3,blau,20,1,hit,557.024733225504
2,517,11,3,distractor,distractor,2,orange,23,2,CR,NaN
2,518,11,3,target,target_nonprimed,1,grün,17,1,miss,NaN
2,519,11,1,distractor,distractor,3,blau,20,1,FA_proper,742.809915542603
2,520,11,3,distractor,distractor,2,orange,23,1,FA_proper,960.982227325439
2,520,11,3,target,target_primed,3,blau,20,2,miss,NaN
2,521,11,2,target,target_primed,2,orange,23,1,hit,454.085159301758
2,521,11,2,distractor,distractor,1,grün,17,2,CR,NaN
2,524,11,1,distractor,distractor,3,blau,20,1,FA_proper,915.423170725504
2,524,11,1,distractor,distractor,3,blau,20,2,CR,NaN
2,525,11,3,target,target_nonprimed,1,grün,17,1,miss,NaN
2,525,11,3,target,target_primed,3,blau,20,2,hit,675.462929407756
2,526,11,2,target,target_nonprimed,3,blau,20,1,hit,572.568257649739
2,526,11,2,distractor,distractor,1,grün,17,2,CR,NaN
2,527,11,3,target,target_primed,3,blau,20,1,hit,558.238252003988
2,529,11,2,target,target_nonprimed,3,blau,20,1,hit,835.764869054159
2,529,11,2,target,target_primed,2,orange,23,2,hit,506.88541730245
2,531,11,3,target,target_nonprimed,1,grün,17,1,miss,NaN
2,533,11,2,distractor,distractor,1,grün,17,1,CR,NaN
2,535,11,2,distractor,distractor,1,grün,17,1,CR,NaN
2,536,11,2,target,target_primed,2,orange,23,1,hit,595.784648259481
2,537,11,1,target,target_nonprimed,2,orange,23,1,miss,NaN
2,539,11,2,distractor,distractor,1,grün,17,1,CR,NaN
2,539,11,2,target,target_primed,2,orange,23,2,hit,646.788326899211
2,542,11,3,distractor,distractor,2,orange,23,1,CR,NaN
2,547,11,3,target,target_primed,3,blau,20,1,hit,526.623153686523
2,547,11,3,distractor,distractor,2,orange,23,2,FA_proper,849.030240376791
2,548,11,2,distractor,distractor,1,grün,17,1,CR,NaN
2,550,11,2,distractor,distractor,1,grün,17,1,CR,NaN
2,553,12,2,target,target_nonprimed,3,blau,20,1,hit,598.371044794718
2,558,12,1,target,target_primed,1,grün,17,1,miss,NaN
2,558,12,1,distractor,distractor,3,blau,20,2,FA_proper,626.679293314616
2,560,12,1,target,target_nonprimed,2,orange,23,1,hit,955.147775014241
2,560,12,1,target,target_primed,1,grün,17,2,miss,NaN
2,567,12,3,target,target_primed,3,blau,20,1,hit,568.064832687378
2,568,12,1,distractor,distractor,3,blau,20,1,CR,NaN
2,569,12,2,target,target_nonprimed,3,blau,20,1,hit,932.874933878581
2,569,12,2,target,target_primed,2,orange,23,2,hit,814.580281575521
2,571,12,1,distractor,distractor,3,blau,20,1,FA_proper,886.183420817058
2,571,12,1,distractor,distractor,3,blau,20,2,FA_proper,792.235581080119
2,573,12,1,distractor,distractor,3,blau,20,1,CR,NaN
2,576,12,2,distractor,distractor,1,grün,17,1,CR,NaN
2,576,12,2,distractor,distractor,1,grün,17,2,CR,NaN
2,577,12,3,target,target_nonprimed,1,grün,17,1,miss,NaN
2,578,12,1,distractor,distractor,3,blau,20,1,CR,NaN
2,578,12,1,distractor,distractor,3,blau,20,2,CR,NaN
2,579,12,1,distractor,distractor,3,blau,20,1,CR,NaN
2,579,12,1,target,target_nonprimed,2,orange,23,2,miss,NaN
2,581,12,2,distractor,distractor,1,grün,17,1,CR,NaN
2,581,12,2,target,target_nonprimed,3,blau,20,2,hit,945.525773366292
2,586,12,2,distractor,distractor,1,grün,17,1,CR,NaN
2,589,12,1,target,target_primed,1,grün,17,1,miss,NaN
2,589,12,1,target,target_nonprimed,2,orange,23,2,miss,NaN
2,591,12,1,target,target_primed,1,grün,17,1,miss,NaN
2,592,12,2,distractor,distractor,1,grün,17,1,CR,NaN
2,593,12,2,target,target_primed,2,orange,23,1,hit,742.918395996094
2,593,12,2,distractor,distractor,1,grün,17,2,CR,NaN
2,594,12,3,distractor,distractor,2,orange,23,1,FA_proper,640.305058161417
2,596,12,1,target,target_nonprimed,2,orange,23,1,miss,NaN
2,598,12,2,distractor,distractor,1,grün,17,1,CR,NaN
2,598,12,2,target,target_primed,2,orange,23,2,hit,632.88590113322
3,5,1,1,distractor,distractor,3,grün,20,1,FA_proper,832.551527023315
3,9,1,3,target,target_nonprimed,1,orange,23,1,hit,777.412764231364
3,11,1,3,distractor,distractor,2,blau,17,1,CR,NaN
3,14,1,2,distractor,distractor,1,orange,23,1,FA_proper,879.61212793986
3,16,1,2,target,target_nonprimed,3,grün,20,1,hit,655.765136082967
3,16,1,2,target,target_primed,2,blau,17,2,hit,701.121966044108
3,19,1,2,target,target_primed,2,blau,17,1,hit,604.353300730387
3,21,1,3,target,target_primed,3,grün,20,1,hit,694.077984491984
3,21,1,3,distractor,distractor,2,blau,17,2,CR,NaN
3,22,1,3,distractor,distractor,2,blau,17,1,CR,NaN
3,26,1,1,distractor,distractor,3,grün,20,1,CR,NaN
3,27,1,1,distractor,distractor,3,grün,20,1,FA_proper,981.660302480062
3,30,1,1,distractor,distractor,3,grün,20,1,CR,NaN
3,31,1,3,distractor,distractor,2,blau,17,1,CR,NaN
3,33,1,2,distractor,distractor,1,orange,23,1,FA_proper,991.732041041057
3,34,1,3,target,target_primed,3,grün,20,1,miss,NaN
3,36,1,1,distractor,distractor,3,grün,20,1,CR,NaN
3,37,1,2,target,target_nonprimed,3,grün,20,1,miss,NaN
3,37,1,2,target,target_nonprimed,3,grün,20,2,hit,751.66179339091
3,41,1,2,distractor,distractor,1,orange,23,1,CR,NaN
3,41,1,2,distractor,distractor,1,orange,23,2,CR,NaN
3,51,2,2,distractor,distractor,1,orange,23,1,CR,NaN
3,51,2,2,target,target_primed,2,blau,17,2,hit,665.773852666219
3,54,2,3,distractor,distractor,2,blau,17,1,CR,NaN
3,59,2,2,target,target_nonprimed,3,grün,20,1,miss,NaN
3,60,2,1,target,target_primed,1,orange,23,1,hit,736.325025558472
3,62,2,2,distractor,distractor,1,orange,23,1,FA_proper,728.68234316508
3,64,2,3,target,target_primed,3,grün,20,1,hit,869.530073801677
3,64,2,3,target,target_primed,3,grün,20,2,hit,808.685175577799
3,66,2,3,distractor,distractor,2,blau,17,1,CR,NaN
3,66,2,3,target,target_primed,3,grün,20,2,hit,717.440795898438
3,71,2,1,target,target_nonprimed,2,blau,17,1,hit,828.541787465414
3,71,2,1,distractor,distractor,3,grün,20,2,CR,NaN
3,75,2,2,distractor,distractor,1,orange,23,1,FA_proper,780.115938186646
3,76,2,1,distractor,distractor,3,grün,20,1,CR,NaN
3,76,2,1,target,target_primed,1,orange,23,2,miss,NaN
3,84,2,2,target,target_nonprimed,3,grün,20,1,miss,NaN
3,89,2,2,target,target_nonprimed,3,grün,20,1,hit,744.820626576741
3,89,2,2,distractor,distractor,1,orange,23,2,CR,NaN
3,91,2,3,target,target_primed,3,grün,20,1,hit,673.990853627523
3,93,2,2,distractor,distractor,1,orange,23,1,FA_proper,979.180097579956
3,94,2,1,target,target_nonprimed,2,blau,17,1,miss,NaN
3,96,2,1,distractor,distractor,3,grün,20,1,CR,NaN
3,97,2,2,target,target_nonprimed,3,grün,20,1,hit,682.740672429403
3,98,2,3,target,target_primed,3,grün,20,1,hit,794.082657496134
3,101,3,1,target,target_primed,1,orange,23,1,miss,NaN
3,105,3,1,distractor,distractor,3,grün,20,1,CR,NaN
3,105,3,1,distractor,distractor,3,grün,20,2,CR,NaN
3,106,3,1,distractor,distractor,3,grün,20,1,CR,NaN
3,108,3,2,target,target_nonprimed,3,grün,20,1,hit,780.923875172933
3,108,3,2,target,target_nonprimed,3,grün,20,2,hit,630.903037389119
3,112,3,1,distractor,distractor,3,grün,20,1,CR,NaN
3,112,3,1,distractor,distractor,3,grün,20,2,CR,NaN
3,117,3,3,distractor,distractor,2,blau,17,1,CR,NaN
3,117,3,3,target,target_primed,3,grün,20,2,miss,NaN
3,119,3,1,target,target_primed,1,orange,23,1,hit,976.004362106323
3,119,3,1,distractor,distractor,3,grün,20,2,CR,NaN
3,120,3,1,distractor,distractor,3,grün,20,1,CR,NaN
3,123,3,2,target,target_nonprimed,3,grün,20,1,miss,NaN
3,123,3,2,target,target_primed,2,blau,17,2,hit,896.466255187988
3,124,3,1,distractor,distractor,3,grün,20,1,CR,NaN
3,124,3,1,distractor,distractor,3,grün,20,2,CR,NaN
3,131,3,1,target,target_nonprimed,2,blau,17,1,miss,NaN
3,131,3,1,target,target_nonprimed,2,blau,17,2,miss,NaN
3,133,3,2,target,target_primed,2,blau,17,1,hit,911.622206370036
3,133,3,2,distractor,distractor,1,orange,23,2,FA_proper,944.30898030599
3,135,3,1,target,target_primed,1,orange,23,1,hit,767.082643508911
3,140,3,2,distractor,distractor,1,orange,23,1,FA_proper,801.194938023885
3,140,3,2,distractor,distractor,1,orange,23,2,CR,NaN
3,141,3,3,target,target_nonprimed,1,orange,23,1,miss,NaN
3,141,3,3,distractor,distractor,2,blau,17,2,CR,NaN
3,144,3,2,distractor,distractor,1,orange,23,1,CR,NaN
3,144,3,2,target,target_primed,2,blau,17,2,miss,NaN
3,146,3,3,distractor,distractor,2,blau,17,1,CR,NaN
3,146,3,3,distractor,distractor,2,blau,17,2,CR,NaN
3,147,3,2,distractor,distractor,1,orange,23,1,CR,NaN
3,147,3,2,target,target_nonprimed,3,grün,20,2,hit,523.960955937704
3,150,3,3,distractor,distractor,2,blau,17,1,CR,NaN
3,155,4,3,distractor,distractor,2,blau,17,1,FA_proper,737.578884760539
3,158,4,2,distractor,distractor,1,orange,23,1,CR,NaN
3,158,4,2,target,target_nonprimed,3,grün,20,2,hit,802.918386459351
3,160,4,2,target,target_nonprimed,3,grün,20,1,hit,581.584199269613
3,162,4,2,distractor,distractor,1,orange,23,1,CR,NaN
3,162,4,2,distractor,distractor,1,orange,23,2,CR,NaN
3,165,4,3,distractor,distractor,2,blau,17,1,CR,NaN
3,165,4,3,target,target_primed,3,grün,20,2,hit,707.753817240397
3,168,4,2,distractor,distractor,1,orange,23,1,CR,NaN
3,168,4,2,distractor,distractor,1,orange,23,2,CR,NaN
3,170,4,1,distractor,distractor,3,grün,20,1,FA_proper,985.701481501261
3,170,4,1,distractor,distractor,3,grün,20,2,CR,NaN
3,171,4,3,distractor,distractor,2,blau,17,1,CR,NaN
3,172,4,2,distractor,distractor,1,orange,23,1,CR,NaN
3,174,4,2,target,target_primed,2,blau,17,1,hit,748.269240061442
3,174,4,2,distractor,distractor,1,orange,23,2,CR,NaN
3,177,4,3,distractor,distractor,2,blau,17,1,CR,NaN
3,177,4,3,distractor,distractor,2,blau,17,2,CR,NaN
3,178,4,2,distractor,distractor,1,orange,23,1,CR,NaN
3,178,4,2,target,target_primed,2,blau,17,2,hit,978.222878774007
3,180,4,1,distractor,distractor,3,grün,20,1,CR,NaN
3,180,4,1,distractor,distractor,3,grün,20,2,CR,NaN
3,183,4,3,distractor,distractor,2,blau,17,1,CR,NaN
3,183,4,3,distractor,distractor,2,blau,17,2,CR,NaN
3,188,4,3,distractor,distractor,2,blau,17,1,CR,NaN
3,188,4,3,target,target_primed,3,grün,20,2,hit,632.001145680746
3,191,4,2,distractor,distractor,1,orange,23,1,CR,NaN
3,191,4,2,distractor,distractor,1,orange,23,2,CR,NaN
3,193,4,3,distractor,distractor,2,blau,17,1,CR,NaN
3,194,4,2,distractor,distractor,1,orange,23,1,CR,NaN
3,194,4,2,target,target_nonprimed,3,grün,20,2,hit,637.847757339477
3,197,4,1,distractor,distractor,3,grün,20,1,CR,NaN
3,199,4,2,target,target_primed,2,blau,17,1,hit,740.34366607666
3,202,5,1,target,target_nonprimed,2,blau,17,1,miss,NaN
3,202,5,1,target,target_primed,1,orange,23,2,hit,453.760067621867
3,204,5,1,target,target_primed,1,orange,23,1,hit,684.790484110514
3,204,5,1,target,target_primed,1,orange,23,2,hit,549.784104029338
3,206,5,3,target,target_nonprimed,1,orange,23,1,miss,NaN
3,209,5,2,target,target_primed,2,blau,17,1,hit,669.66012318929
3,210,5,1,distractor,distractor,3,grün,20,1,CR,NaN
3,210,5,1,target,target_primed,1,orange,23,2,miss,NaN
3,211,5,1,target,target_primed,1,orange,23,1,hit,987.986501057942
3,211,5,1,target,target_nonprimed,2,blau,17,2,hit,834.489361445109
3,212,5,1,distractor,distractor,3,grün,20,1,CR,NaN
3,213,5,3,target,target_nonprimed,1,orange,23,1,hit,734.384044011434
3,213,5,3,target,target_primed,3,grün,20,2,hit,656.105995178223
3,217,5,1,distractor,distractor,3,grün,20,1,CR,NaN
3,217,5,1,target,target_nonprimed,2,blau,17,2,hit,641.077677408854
3,219,5,3,distractor,distractor,2,blau,17,1,CR,NaN
3,219,5,3,target,target_nonprimed,1,orange,23,2,hit,906.280120213826
3,220,5,1,distractor,distractor,3,grün,20,1,CR,NaN
3,222,5,3,distractor,distractor,2,blau,17,1,CR,NaN
3,222,5,3,distractor,distractor,2,blau,17,2,CR,NaN
3,223,5,1,target,target_primed,1,orange,23,1,hit,846.546125411987
3,224,5,3,target,target_nonprimed,1,orange,23,1,hit,651.525592803955
3,224,5,3,distractor,distractor,2,blau,17,2,CR,NaN
3,225,5,3,distractor,distractor,2,blau,17,1,CR,NaN
3,225,5,3,target,target_primed,3,grün,20,2,hit,565.86480140686
3,226,5,2,target,target_primed,2,blau,17,1,hit,686.992899576823
3,227,5,2,target,target_nonprimed,3,grün,20,1,miss,NaN
3,228,5,3,target,target_nonprimed,1,orange,23,1,hit,948.539559046427
3,228,5,3,distractor,distractor,2,blau,17,2,CR,NaN
3,229,5,2,target,target_primed,2,blau,17,1,hit,539.532931645711
3,230,5,1,distractor,distractor,3,grün,20,1,CR,NaN
3,230,5,1,distractor,distractor,3,grün,20,2,FA_proper,713.754796981812
3,231,5,2,distractor,distractor,1,orange,23,1,FA_proper,783.374786376953
3,236,5,1,distractor,distractor,3,grün,20,1,CR,NaN
3,236,5,1,target,target_nonprimed,2,blau,17,2,miss,NaN
3,238,5,1,distractor,distractor,3,grün,20,1,CR,NaN
3,241,5,1,target,target_nonprimed,2,blau,17,1,hit,697.283617655436
3,245,5,2,target,target_primed,2,blau,17,1,hit,576.83474222819
3,246,5,3,target,target_nonprimed,1,orange,23,1,hit,562.21079826355
3,247,5,1,target,target_nonprimed,2,blau,17,1,hit,582.790946960449
3,248,5,1,distractor,distractor,3,grün,20,1,CR,NaN
3,248,5,1,target,target_primed,1,orange,23,2,hit,630.15243212382
3,251,6,1,distractor,distractor,3,grün,20,1,CR,NaN
3,251,6,1,target,target_primed,1,orange,23,2,hit,730.780490239461
3,254,6,1,target,target_nonprimed,2,blau,17,1,hit,777.49015490214
3,255,6,2,target,target_nonprimed,3,grün,20,1,hit,606.403748194376
3,255,6,2,distractor,distractor,1,orange,23,2,CR,NaN
3,256,6,1,distractor,distractor,3,grün,20,1,FA_proper,724.875020980835
3,256,6,1,target,target_nonprimed,2,blau,17,2,hit,597.361882527669
3,262,6,3,distractor,distractor,2,blau,17,1,CR,NaN
3,266,6,1,target,target_nonprimed,2,blau,17,1,hit,622.061602274576
3,267,6,3,target,target_nonprimed,1,orange,23,1,miss,NaN
3,267,6,3,target,target_primed,3,grün,20,2,hit,641.7640209198
3,268,6,1,target,target_nonprimed,2,blau,17,1,miss,NaN
3,268,6,1,distractor,distractor,3,grün,20,2,CR,NaN
3,275,6,2,distractor,distractor,1,orange,23,1,CR,NaN
3,276,6,3,distractor,distractor,2,blau,17,1,CR,NaN
3,276,6,3,distractor,distractor,2,blau,17,2,CR,NaN
3,278,6,3,distractor,distractor,2,blau,17,1,CR,NaN
3,278,6,3,distractor,distractor,2,blau,17,2,CR,NaN
3,289,6,2,target,target_nonprimed,3,grün,20,1,hit,683.738978703816
3,289,6,2,distractor,distractor,1,orange,23,2,CR,NaN
3,291,6,1,target,target_primed,1,orange,23,1,hit,970.768388112386
3,292,6,3,target,target_nonprimed,1,orange,23,1,hit,709.997781117757
3,293,6,3,target,target_primed,3,grün,20,1,hit,526.886320114136
3,293,6,3,target,target_primed,3,grün,20,2,hit,705.997943878174
3,298,6,3,target,target_nonprimed,1,orange,23,1,hit,705.582253138224
3,298,6,3,target,target_primed,3,grün,20,2,hit,767.078828811646
3,300,6,1,target,target_primed,1,orange,23,1,hit,676.526403427124
3,300,6,1,distractor,distractor,3,grün,20,2,CR,NaN
3,301,7,2,distractor,distractor,1,orange,23,1,CR,NaN
3,305,7,1,distractor,distractor,3,grün,20,1,CR,NaN
3,306,7,2,target,target_nonprimed,3,grün,20,1,hit,643.299468358358
3,306,7,2,distractor,distractor,1,orange,23,2,CR,NaN
3,309,7,3,target,target_primed,3,grün,20,1,hit,675.008916854858
3,310,7,3,target,target_primed,3,grün,20,1,hit,753.573592503865
3,313,7,1,target,target_primed,1,orange,23,1,hit,587.764994303385
3,314,7,3,target,target_primed,3,grün,20,1,hit,687.554423014323
3,318,7,3,target,target_primed,3,grün,20,1,hit,616.539653142293
3,318,7,3,target,target_nonprimed,1,orange,23,2,hit,652.795616785685
3,322,7,1,target,target_primed,1,orange,23,1,hit,734.547106424968
3,322,7,1,target,target_nonprimed,2,blau,17,2,miss,NaN
3,324,7,1,distractor,distractor,3,grün,20,1,CR,NaN
3,324,7,1,distractor,distractor,3,grün,20,2,CR,NaN
3,329,7,3,distractor,distractor,2,blau,17,1,CR,NaN
3,329,7,3,distractor,distractor,2,blau,17,2,CR,NaN
3,331,7,2,target,target_nonprimed,3,grün,20,1,hit,893.679523468018
3,331,7,2,target,target_primed,2,blau,17,2,hit,620.471445719401
3,333,7,1,target,target_primed,1,orange,23,1,miss,NaN
3,334,7,2,target,target_nonprimed,3,grün,20,1,hit,659.758774439494
3,338,7,2,distractor,distractor,1,orange,23,1,CR,NaN
3,338,7,2,target,target_nonprimed,3,grün,20,2,hit,648.300234476725
3,342,7,2,distractor,distractor,1,orange,23,1,FA_proper,461.035712560018
3,344,7,1,target,target_primed,1,orange,23,1,hit,699.59397315979
3,344,7,1,distractor,distractor,3,grün,20,2,CR,NaN
3,346,7,1,target,target_nonprimed,2,blau,17,1,hit,888.268645604452
3,346,7,1,distractor,distractor,3,grün,20,2,CR,NaN
3,348,7,3,distractor,distractor,2,blau,17,1,CR,NaN
3,350,7,1,distractor,distractor,3,grün,20,1,CR,NaN
3,350,7,1,target,target_nonprimed,2,blau,17,2,hit,562.537097930909
3,351,8,1,distractor,distractor,3,grün,20,1,CR,NaN
3,351,8,1,distractor,distractor,3,grün,20,2,CR,NaN
3,352,8,3,distractor,distractor,2,blau,17,1,CR,NaN
3,361,8,3,target,target_primed,3,grün,20,1,hit,737.149302164713
3,361,8,3,distractor,distractor,2,blau,17,2,CR,NaN
3,373,8,2,target,target_primed,2,blau,17,1,hit,586.506239573161
3,373,8,2,target,target_nonprimed,3,grün,20,2,miss,NaN
3,374,8,2,distractor,distractor,1,orange,23,1,CR,NaN
3,374,8,2,distractor,distractor,1,orange,23,2,CR,NaN
3,377,8,1,target,target_primed,1,orange,23,1,hit,635.829178492228
3,377,8,1,target,target_nonprimed,2,blau,17,2,hit,738.877360026042
3,382,8,2,target,target_primed,2,blau,17,1,hit,644.723637898763
3,383,8,3,target,target_nonprimed,1,orange,23,1,hit,849.700101216634
3,383,8,3,target,target_nonprimed,1,orange,23,2,hit,491.097370783488
3,384,8,1,target,target_nonprimed,2,blau,17,1,hit,844.776185353597
3,385,8,1,distractor,distractor,3,grün,20,1,CR,NaN
3,387,8,2,distractor,distractor,1,orange,23,1,CR,NaN
3,387,8,2,distractor,distractor,1,orange,23,2,CR,NaN
3,390,8,3,distractor,distractor,2,blau,17,1,CR,NaN
3,391,8,1,target,target_primed,1,orange,23,1,hit,865.810044606527
3,398,8,2,distractor,distractor,1,orange,23,1,CR,NaN
3,398,8,2,distractor,distractor,1,orange,23,2,CR,NaN
3,401,9,3,target,target_nonprimed,1,orange,23,1,hit,781.352376937866
3,402,9,1,distractor,distractor,3,grün,20,1,CR,NaN
3,404,9,3,target,target_nonprimed,1,orange,23,1,hit,683.815209070842
3,404,9,3,distractor,distractor,2,blau,17,2,CR,NaN
3,405,9,3,distractor,distractor,2,blau,17,1,CR,NaN
3,406,9,2,target,target_primed,2,blau,17,1,hit,641.136948267619
3,406,9,2,distractor,distractor,1,orange,23,2,CR,NaN
3,407,9,2,target,target_primed,2,blau,17,1,hit,727.707592646281
3,408,9,3,target,target_nonprimed,1,orange,23,1,miss,NaN
3,408,9,3,distractor,distractor,2,blau,17,2,CR,NaN
3,410,9,2,distractor,distractor,1,orange,23,1,CR,NaN
3,414,9,1,distractor,distractor,3,grün,20,1,CR,NaN
3,415,9,3,target,target_primed,3,grün,20,1,hit,740.608151753744
3,417,9,2,distractor,distractor,1,orange,23,1,CR,NaN
3,418,9,3,target,target_primed,3,grün,20,1,hit,699.69843228658
3,422,9,1,target,target_nonprimed,2,blau,17,1,hit,741.782363255818
3,422,9,1,target,target_primed,1,orange,23,2,hit,679.738934834798
3,424,9,2,target,target_primed,2,blau,17,1,hit,685.167423884074
3,424,9,2,distractor,distractor,1,orange,23,2,CR,NaN
3,428,9,3,distractor,distractor,2,blau,17,1,CR,NaN
3,431,9,3,distractor,distractor,2,blau,17,1,CR,NaN
3,431,9,3,target,target_nonprimed,1,orange,23,2,hit,548.6381371816
3,432,9,2,target,target_primed,2,blau,17,1,hit,775.172519683838
3,432,9,2,target,target_primed,2,blau,17,2,hit,625.044981638591
3,433,9,2,distractor,distractor,1,orange,23,1,CR,NaN
3,437,9,2,target,target_primed,2,blau,17,1,miss,NaN
3,439,9,1,target,target_primed,1,orange,23,1,hit,674.118423461914
3,440,9,3,target,target_primed,3,grün,20,1,hit,739.601469039917
3,440,9,3,distractor,distractor,2,blau,17,2,CR,NaN
3,443,9,3,target,target_nonprimed,1,orange,23,1,hit,611.66041692098
3,446,9,2,distractor,distractor,1,orange,23,1,FA_proper,842.722272872925
3,448,9,1,target,target_nonprimed,2,blau,17,1,hit,533.784135182699
3,449,9,2,distractor,distractor,1,orange,23,1,CR,NaN
3,449,9,2,target,target_primed,2,blau,17,2,hit,652.770900726318
3,453,10,1,distractor,distractor,3,grün,20,1,CR,NaN
3,456,10,2,distractor,distractor,1,orange,23,1,CR,NaN
3,457,10,1,target,target_nonprimed,2,blau,17,1,hit,708.35428237915
3,457,10,1,target,target_nonprimed,2,blau,17,2,hit,521.336603164673
3,458,10,1,distractor,distractor,3,grün,20,1,CR,NaN
3,459,10,2,target,target_nonprimed,3,grün,20,1,hit,742.138957977294
3,460,10,1,target,target_primed,1,orange,23,1,hit,733.044179280599
3,466,10,1,target,target_nonprimed,2,blau,17,1,hit,624.639908472697
3,468,10,1,target,target_nonprimed,2,blau,17,1,hit,634.932359059651
3,468,10,1,distractor,distractor,3,grün,20,2,CR,NaN
3,469,10,1,distractor,distractor,3,grün,20,1,CR,NaN
3,473,10,3,target,target_primed,3,grün,20,1,hit,695.00699043274
3,475,10,3,target,target_primed,3,grün,20,1,hit,646.940279006958
3,475,10,3,distractor,distractor,2,blau,17,2,CR,NaN
3,478,10,3,distractor,distractor,2,blau,17,1,CR,NaN
3,480,10,2,target,target_nonprimed,3,grün,20,1,hit,811.946821212769
3,480,10,2,distractor,distractor,1,orange,23,2,CR,NaN
3,482,10,2,target,target_nonprimed,3,grün,20,1,miss,NaN
3,482,10,2,target,target_nonprimed,3,grün,20,2,hit,798.472690582275
3,486,10,3,target,target_nonprimed,1,orange,23,1,hit,770.917669932047
3,489,10,2,distractor,distractor,1,orange,23,1,CR,NaN
3,491,10,1,target,target_nonprimed,2,blau,17,1,hit,641.319847106934
3,491,10,1,target,target_nonprimed,2,blau,17,2,hit,528.778711954753
3,493,10,3,distractor,distractor,2,blau,17,1,CR,NaN
3,494,10,3,target,target_primed,3,grün,20,1,hit,808.659680684408
3,494,10,3,target,target_nonprimed,1,orange,23,2,hit,809.365034103394
3,495,10,3,distractor,distractor,2,blau,17,1,CR,NaN
3,497,10,3,target,target_primed,3,grün,20,1,hit,571.228377024333
3,497,10,3,target,target_primed,3,grün,20,2,hit,486.365334192912
3,501,11,1,target,target_primed,1,orange,23,1,hit,690.267133712769
3,501,11,1,target,target_primed,1,orange,23,2,hit,649.382638931274
3,502,11,3,target,target_nonprimed,1,orange,23,1,miss,NaN
3,502,11,3,target,target_nonprimed,1,orange,23,2,hit,638.821967442831
3,503,11,3,distractor,distractor,2,blau,17,1,CR,NaN
3,504,11,2,target,target_nonprimed,3,grün,20,1,hit,968.96980603536
3,507,11,3,distractor,distractor,2,blau,17,1,CR,NaN
3,507,11,3,distractor,distractor,2,blau,17,2,CR,NaN
3,508,11,3,distractor,distractor,2,blau,17,1,CR,NaN
3,508,11,3,distractor,distractor,2,blau,17,2,CR,NaN
3,515,11,1,target,target_nonprimed,2,blau,17,1,hit,715.644041697185
3,515,11,1,distractor,distractor,3,grün,20,2,CR,NaN
3,517,11,2,distractor,distractor,1,orange,23,1,CR,NaN
3,519,11,1,target,target_primed,1,orange,23,1,hit,573.380835851034
3,519,11,1,distractor,distractor,3,grün,20,2,CR,NaN
3,520,11,1,distractor,distractor,3,grün,20,1,CR,NaN
3,520,11,1,target,target_nonprimed,2,blau,17,2,hit,552.700249354045
3,524,11,3,target,target_nonprimed,1,orange,23,1,hit,744.98405456543
3,525,11,3,distractor,distractor,2,blau,17,1,CR,NaN
3,525,11,3,target,target_nonprimed,1,orange,23,2,hit,892.441685994466
3,526,11,1,distractor,distractor,3,grün,20,1,CR,NaN
3,533,11,2,distractor,distractor,1,orange,23,1,CR,NaN
3,533,11,2,distractor,distractor,1,orange,23,2,CR,NaN
3,534,11,1,target,target_nonprimed,2,blau,17,1,hit,891.117986043294
3,537,11,2,distractor,distractor,1,orange,23,1,CR,NaN
3,538,11,3,distractor,distractor,2,blau,17,1,CR,NaN
3,539,11,2,distractor,distractor,1,orange,23,1,CR,NaN
3,539,11,2,distractor,distractor,1,orange,23,2,CR,NaN
3,540,11,3,distractor,distractor,2,blau,17,1,CR,NaN
3,540,11,3,target,target_nonprimed,1,orange,23,2,miss,NaN
3,541,11,2,distractor,distractor,1,orange,23,1,CR,NaN
3,541,11,2,target,target_primed,2,blau,17,2,miss,NaN
3,542,11,2,target,target_primed,2,blau,17,1,hit,662.294340133667
3,542,11,2,target,target_primed,2,blau,17,2,hit,532.681830724081
3,545,11,1,target,target_nonprimed,2,blau,17,1,hit,578.632974624634
3,546,11,1,distractor,distractor,3,grün,20,1,CR,NaN
3,546,11,1,distractor,distractor,3,grün,20,2,CR,NaN
3,556,12,3,distractor,distractor,2,blau,17,1,CR,NaN
3,556,12,3,distractor,distractor,2,blau,17,2,CR,NaN
3,560,12,2,target,target_primed,2,blau,17,1,hit,679.75910504659
3,562,12,3,target,target_primed,3,grün,20,1,hit,739.944871266683
3,568,12,3,target,target_nonprimed,1,orange,23,1,hit,705.585479736328
3,570,12,3,distractor,distractor,2,blau,17,1,CR,NaN
3,571,12,2,target,target_primed,2,blau,17,1,hit,658.965539932251
3,571,12,2,distractor,distractor,1,orange,23,2,FA_proper,779.33767636617
3,572,12,3,distractor,distractor,2,blau,17,1,CR,NaN
3,572,12,3,target,target_nonprimed,1,orange,23,2,miss,NaN
3,573,12,2,target,target_nonprimed,3,grün,20,1,miss,NaN
3,575,12,2,target,target_primed,2,blau,17,1,hit,590.095965067546
3,575,12,2,target,target_nonprimed,3,grün,20,2,miss,NaN
3,578,12,1,target,target_primed,1,orange,23,1,hit,762.216424942017
3,578,12,1,distractor,distractor,3,grün,20,2,CR,NaN
3,581,12,2,distractor,distractor,1,orange,23,1,CR,NaN
3,582,12,1,distractor,distractor,3,grün,20,1,CR,NaN
3,582,12,1,distractor,distractor,3,grün,20,2,CR,NaN
3,583,12,1,distractor,distractor,3,grün,20,1,CR,NaN
3,583,12,1,target,target_primed,1,orange,23,2,miss,NaN
3,587,12,2,distractor,distractor,1,orange,23,1,CR,NaN
3,587,12,2,target,target_nonprimed,3,grün,20,2,hit,925.72242418925
3,589,12,2,distractor,distractor,1,orange,23,1,CR,NaN
3,592,12,3,target,target_primed,3,grün,20,1,hit,668.896881739299
3,592,12,3,distractor,distractor,2,blau,17,2,CR,NaN
3,594,12,2,target,target_nonprimed,3,grün,20,1,hit,630.773194630941
3,600,12,3,target,target_nonprimed,1,orange,23,1,miss,NaN
